Folder: Comparison-of-the-corrosion-behavior-of-four-Fe-Cr-Ni-austenitic-alloys-in-supercritical-water/XRD (part 2)

File: 600-07.txt
?
20.0     6
20.23665 7
20.47331 18
20.70996 11
20.94662 17
21.18328 15
21.41993 19
21.65659 1
21.89325 20
22.12990 11
22.36656 21
22.60322 30
22.83987 10
23.07653 16
23.31318 15
23.54984 20
23.78650 23
24.02315 15
24.25981 27
24.49647 57
24.73312 26
24.96978 25
25.20644 20
25.44309 22
25.67975 12
25.91640 18
26.15306 19
26.38972 22
26.62637 7
26.86303 15
27.09969 19
27.33634 18
27.57300 28
27.80966 11
28.04631 43
28.28297 2
28.51963 30
28.75628 7
28.99294 11
29.22959 19
29.46625 11
29.70291 26
29.93956 22
30.17622 191
30.41288 69
30.64953 21
30.88619 16
31.12285 15
31.35950 18
31.59616 8
31.83281 34
32.06947 11
32.30613 23
32.54278 17
32.77944 16
33.01610 17
33.25275 11
33.48941 58
33.72607 76
33.96272 33
34.19938 39
34.43603 26
34.67269 35
34.90935 28
35.14600 26
35.38266 105
35.61932 973
35.85597 68
36.09263 67
36.32928 87
36.56594 26
36.80260 32
37.03926 136
37.27591 2450
37.51257 121
37.74922 24
37.98588 24
38.22254 20
38.45919 37
38.69585 10
38.93251 12
39.16916 10
39.40582 0
39.64247 19
39.87913 18
40.11579 17
40.35244 16
40.58910 28
40.82576 0
41.06241 0
41.29907 8
41.53572 29
41.77238 8
42.00904 10
42.24570 6
42.48235 9
42.71901 16
42.95566 22
43.19232 176
43.42898 138
43.66563 28
43.90229 56
44.13895 3479
44.37560 679
44.61226 216
44.84891 0
45.08557 30
45.32223 12
45.55888 33
45.79554 9
46.0322  27
46.26885 26
46.50551 7
46.74217 3
46.97882 9
47.21548 25
47.45214 30
47.68879 25
47.92545 20
48.16210 30
48.39876 27
48.63542 20
48.87207 22
49.10873 35
49.34539 23
49.58204 15
49.81870 34
50.05535 21
50.29201 14
50.52867 29
50.76532 20
51.00198 34
51.23864 62
51.47529 799
51.71195 242
51.94861 148
52.18526 30
52.42192 9
52.65858 6
52.89523 13
53.13189 25
53.36854 37
53.60520 63
53.84186 32
54.07851 31
54.31517 19
54.55183 20
54.78848 50
55.02514 49
55.26179 28
55.49845 20
55.73511 10
55.97176 13
56.20842 26
56.44508 31
56.68174 39
56.91839 52
57.15505 174
57.39170 70
57.62836 50
57.86502 26
58.10167 14
58.33833 24
58.57498 19
58.81164 12
59.04830 17
59.28495 18
59.52161 0
59.75827 25
59.99492 11
60.23158 10
60.46823 11
60.70489 31
60.94155 0
61.17820 22
61.41486 13
61.65152 31
61.88818 16
62.12483 2
62.36149 31
62.59814 62
62.83480 417
63.07146 88
63.30811 42
63.54477 42
63.78142 0
64.01808 24
64.25474 26
64.49140 10
64.72805 28
64.96471 21
65.20137 50
65.43802 39
65.67468 26
65.91133 19
66.14799 11
66.38465 18
66.62130 5
66.85796 8
67.09462 31
67.33127 0
67.56793 24
67.80458 5
68.04124 29
68.27790 21
68.51455 11
68.75121 23
68.98786 4
69.22452 15
69.46118 29
69.69783 19
69.93449 10
70.17115 14
70.40780 20
70.64446 24
70.88111 33
71.11777 24
71.35443 28
71.59108 18
71.82774 12
72.0644  18
72.30105 15
72.53771 33
72.77436 16
73.01102 28
73.24768 2
73.48434 20
73.72100 9
73.95765 17
74.19431 78
74.43096 56
74.66762 35
74.90428 16
75.14093 39
75.37759 72
75.61425 283
75.85090 121
76.08756 69
76.32421 94
76.56087 35
76.79753 14
77.03418 11
77.27084 17
77.5075  21
77.74415 7
77.98081 20
78.21746 11
78.45412 25
78.69078 9
78.92743 19
79.16409 76
79.40074 185
79.63740 57
79.87406 9
80.11071 25
80.34737 4
80.58403 30
80.82068 6
81.05734 17
81.29399 15
81.53065 11
81.76731 39
82.00396 8
82.24062 19
82.47728 27
82.71393 16
82.95059 21
83.18725 7
83.42391 22
83.66056 26
83.89722 22
84.13388 14
84.37053 25
84.60719 26
84.84384 9
85.08050 34
85.31716 18
85.55381 20
85.79047 24
86.02713 26
86.26378 17
86.50044 41
86.73709 24
86.97375 35
87.21041 45
87.44706 14
87.68372 13
87.92038 19
88.15703 20
88.39369 20
88.63034 16
88.86700 3
89.10366 12
89.34031 25
89.57697 32
89.81362 31
89.99111 45

File: 600-07.uxd
;content of D:\data\result\mecham\???\20231225-89741\600-07.raw - (Diffrac Plus V4 file)
_FILEVERSION = 3
_SAMPLE
_+SAMPLE
_USER = Lab Manager
_GONIOMETER_CODE = 21
_STAGE_CODE = 7
; Goniometer : D8 theta/theta, stage : Chi drive
_SAMPLE_CHANGER_CODE = 0
_ATTACHMENTS_CODE = 0
_GONIOMETER_RADIUS = 280
_MONOCHROMATOR = 0
; Incident beam monochromator : None
_BETA_FILTER = N
_ANALYZER_CODE = 0
; Received beam analyzer : None
_DATEMEASURED = 25-Dec-2023 10:43:43
_RUNTIME = 11.19043
_WL_UNIT = A
_WL1 = 1.5406
_WL2 = 1.54439
_WL3 = 1.39222
_WLRATIO = 0.5
_ANODE = Cu
_V4_INF_USER = Lab Manager
_V4_INF_CREATOR = V5Converter
_V4_INF_CREATOR_VERSION = 4.4.16.0

; Data for range 1
_DRIVE = COUPLED
_STEPTIME = 57.6
_STEPSIZE = 0.019721
_STEPMODE = C
_START = 20
_THETA = 10
_2THETA = 20
_KHI = 0
_PHI = 0
_DETECTORSLIT = out
_AUX1 = 0
_TIMESTARTED = 0
_KV = 40
_MA = 40
_RANGE_WL = 1.5406
_3DPLANE = 0
_V4_PSD2THETA = 9999
_V4_PSDCHANNEL1 = 0
_V4_PSDAPERTURE = 2.839876
_V4_PSDTYPE = 5
_V4_PSDFIXED = 0
_V4_COUNTERS_MASK = 1
_V4_DRIVES_MASK = 0
_V4_ENCODERS_MASK = 0
_2THETACOUNTS = 1
; 2THETA	Cnt2_D1
20	293
20.2367	279
20.4733	288
20.71	307
20.9466	311
21.1833	305
21.4199	309
21.6566	277
21.8933	312
22.1299	284
22.3666	312
22.6032	305
22.8399	300
23.0765	293
23.3132	313
23.5498	275
23.7865	308
24.0232	290
24.2598	336
24.4965	396
24.7331	329
24.9698	279
25.2064	313
25.4431	305
25.6798	289
25.9164	321
26.1531	307
26.3897	287
26.6264	289
26.863	282
27.0997	327
27.3363	327
27.573	284
27.8097	312
28.0463	337
28.283	299
28.5196	312
28.7563	319
28.9929	292
29.2296	301
29.4663	320
29.7029	290
29.9396	308
30.1762	483
30.4129	444
30.6495	366
30.8862	282
31.1228	301
31.3595	326
31.5962	297
31.8328	308
32.0695	311
32.3061	317
32.5428	309
32.7794	305
33.0161	302
33.2528	322
33.4894	341
33.7261	399
33.9627	319
34.1994	327
34.436	317
34.6727	342
34.9094	338
35.146	355
35.3827	444
35.6193	1524
35.856	447
36.0926	370
36.3293	425
36.5659	318
36.8026	345
37.0393	517
37.2759	3265
37.5126	618
37.7492	375
37.9859	306
38.2225	338
38.4592	376
38.6959	306
38.9325	334
39.1692	333
39.4058	320
39.6425	332
39.8791	351
40.1158	354
40.3524	335
40.5891	339
40.8258	304
41.0624	266
41.2991	337
41.5357	369
41.7724	303
42.009	341
42.2457	325
42.4824	363
42.719	353
42.9557	378
43.1923	536
43.429	725
43.6656	377
43.9023	404
44.1389	3886
44.3756	1917
44.6123	770
44.8489	357
45.0856	359
45.3222	295
45.5589	339
45.7955	326
46.0322	317
46.2689	334
46.5055	301
46.7422	348
46.9788	327
47.2155	329
47.4521	336
47.6888	332
47.9255	319
48.1621	317
48.3988	338
48.6354	294
48.8721	316
49.1087	303
49.3454	296
49.582	328
49.8187	340
50.0554	328
50.292	340
50.5287	368
50.7653	336
51.002	323
51.2386	351
51.4753	1205
51.712	706
51.9486	573
52.1853	348
52.4219	323
52.6586	321
52.8952	304
53.1319	325
53.3685	362
53.6052	406
53.8419	391
54.0785	329
54.3152	318
54.5518	338
54.7885	345
55.0251	365
55.2618	348
55.4985	297
55.7351	283
55.9718	312
56.2084	346
56.4451	333
56.6817	336
56.9184	366
57.155	456
57.3917	483
57.6284	337
57.865	315
58.1017	319
58.3383	314
58.575	278
58.8116	315
59.0483	297
59.285	282
59.5216	286
59.7583	278
59.9949	297
60.2316	285
60.4682	281
60.7049	308
60.9416	289
61.1782	278
61.4149	311
61.6515	285
61.8882	302
62.1248	286
62.3615	302
62.5981	359
62.8348	730
63.0715	554
63.3081	352
63.5448	358
63.7814	266
64.0181	287
64.2547	313
64.4914	317
64.7281	311
64.9647	294
65.2014	324
65.438	317
65.6747	339
65.9113	294
66.148	267
66.3846	289
66.6213	283
66.858	279
67.0946	326
67.3313	288
67.5679	302
67.8046	253
68.0412	287
68.2779	285
68.5146	294
68.7512	266
68.9879	244
69.2245	282
69.4612	323
69.6978	285
69.9345	311
70.1711	290
70.4078	287
70.6445	306
70.8811	307
71.1178	299
71.3544	342
71.5911	328
71.8277	300
72.0644	265
72.3011	279
72.5377	273
72.7744	288
73.011	272
73.2477	265
73.4843	270
73.721	267
73.9577	268
74.1943	320
74.431	342
74.6676	320
74.9043	271
75.1409	305
75.3776	351
75.6142	587
75.8509	543
76.0876	410
76.3242	385
76.5609	337
76.7975	286
77.0342	271
77.2708	296
77.5075	279
77.7442	263
77.9808	288
78.2175	258
78.4541	296
78.6908	286
78.9274	278
79.1641	361
79.4007	455
79.6374	436
79.8741	315
80.1107	277
80.3474	264
80.584	267
80.8207	271
81.0573	258
81.294	244
81.5307	263
81.7673	265
82.004	251
82.2406	259
82.4773	255
82.7139	252
82.9506	263
83.1873	232
83.4239	234
83.6606	288
83.8972	250
84.1339	247
84.3705	258
84.6072	245
84.8438	249
85.0805	241
85.3172	238
85.5538	264
85.7905	227
86.0271	236
86.2638	256
86.5004	259
86.7371	239
86.9738	230
87.2104	285
87.4471	246
87.6837	240
87.9204	242
88.157	237
88.3937	232
88.6303	250
88.867	235
89.1037	212
89.3403	247
89.577	261
89.8136	244
89.9911	285

File: 690-02.txt
?
20.0     0
20.23665 18
20.47331 23
20.70996 16
20.94662 30
21.18328 21
21.41993 33
21.65659 38
21.89325 35
22.12990 26
22.36656 31
22.60322 42
22.83987 22
23.07653 31
23.31318 39
23.54984 36
23.78650 25
24.02315 26
24.25981 93
24.49647 176
24.73312 41
24.96978 37
25.20644 21
25.44309 28
25.67975 19
25.91640 33
26.15306 11
26.38972 8
26.62637 28
26.86303 26
27.09969 23
27.33634 31
27.57300 41
27.80966 34
28.04631 54
28.28297 44
28.51963 30
28.75628 46
28.99294 41
29.22959 3
29.46625 50
29.70291 51
29.93956 71
30.17622 33
30.41288 32
30.64953 29
30.88619 34
31.12285 47
31.35950 39
31.59616 39
31.83281 30
32.06947 22
32.30613 25
32.54278 33
32.77944 27
33.01610 17
33.25275 144
33.48941 432
33.72607 77
33.96272 20
34.19938 31
34.43603 22
34.67269 21
34.90935 26
35.14600 68
35.38266 46
35.61932 30
35.85597 62
36.09263 55
36.32928 35
36.56594 20
36.80260 27
37.03926 28
37.27591 31
37.51257 31
37.74922 25
37.98588 29
38.22254 23
38.45919 29
38.69585 23
38.93251 30
39.16916 21
39.40582 54
39.64247 55
39.87913 41
40.11579 40
40.35244 14
40.58910 19
40.82576 5
41.06241 11
41.29907 85
41.53572 42
41.77238 7
42.00904 11
42.24570 17
42.48235 32
42.71901 10
42.95566 23
43.19232 27
43.42898 48
43.66563 253
43.90229 11999
44.13895 466
44.37560 93
44.61226 32
44.84891 27
45.08557 19
45.32223 13
45.55888 18
45.79554 0
46.0322  20
46.26885 13
46.50551 7
46.74217 9
46.97882 10
47.21548 23
47.45214 27
47.68879 8
47.92545 41
48.16210 41
48.39876 28
48.63542 17
48.87207 25
49.10873 25
49.34539 47
49.58204 45
49.81870 36
50.05535 81
50.29201 48
50.52867 36
50.76532 70
51.00198 475
51.23864 2408
51.47529 74
51.71195 28
51.94861 38
52.18526 31
52.42192 31
52.65858 14
52.89523 41
53.13189 28
53.36854 25
53.60520 21
53.84186 16
54.07851 21
54.31517 58
54.55183 134
54.78848 90
55.02514 29
55.26179 21
55.49845 11
55.73511 26
55.97176 18
56.20842 24
56.44508 26
56.68174 19
56.91839 24
57.15505 8
57.39170 11
57.62836 26
57.86502 24
58.10167 21
58.33833 60
58.57498 32
58.81164 26
59.04830 17
59.28495 32
59.52161 43
59.75827 15
59.99492 37
60.23158 27
60.46823 44
60.70489 45
60.94155 30
61.17820 43
61.41486 23
61.65152 29
61.88818 57
62.12483 34
62.36149 25
62.59814 46
62.83480 65
63.07146 66
63.30811 43
63.54477 10
63.78142 30
64.01808 19
64.25474 31
64.49140 22
64.72805 38
64.96471 26
65.20137 36
65.43802 11
65.67468 16
65.91133 23
66.14799 38
66.38465 24
66.62130 29
66.85796 21
67.09462 23
67.33127 41
67.56793 40
67.80458 25
68.04124 25
68.27790 26
68.51455 38
68.75121 31
68.98786 30
69.22452 25
69.46118 40
69.69783 21
69.93449 31
70.17115 37
70.40780 24
70.64446 34
70.88111 25
71.11777 31
71.35443 36
71.59108 28
71.82774 29
72.0644  19
72.30105 29
72.53771 44
72.77436 40
73.01102 23
73.24768 27
73.48434 32
73.72100 32
73.95765 20
74.19431 15
74.43096 33
74.66762 14
74.90428 42
75.14093 275
75.37759 421
75.61425 29
75.85090 30
76.08756 30
76.32421 13
76.56087 39
76.79753 18
77.03418 25
77.27084 16
77.5075  21
77.74415 17
77.98081 40
78.21746 38
78.45412 20
78.69078 23
78.92743 31
79.16409 19
79.40074 27
79.63740 13
79.87406 51
80.11071 6
80.34737 34
80.58403 18
80.82068 31
81.05734 6
81.29399 45
81.53065 24
81.76731 24
82.00396 15
82.24062 20
82.47728 15
82.71393 27
82.95059 21
83.18725 31
83.42391 29
83.66056 42
83.89722 23
84.13388 34
84.37053 21
84.60719 39
84.84384 21
85.08050 31
85.31716 45
85.55381 29
85.79047 25
86.02713 28
86.26378 27
86.50044 30
86.73709 20
86.97375 18
87.21041 49
87.44706 17
87.68372 37
87.92038 24
88.15703 34
88.39369 16
88.63034 22
88.86700 28
89.10366 27
89.34031 47
89.57697 43
89.81362 23
89.99111 42

File: 690-02.uxd
;content of D:\data\result\mecham\???\20231225-89741\690-02.raw - (Diffrac Plus V4 file)
_FILEVERSION = 3
_SAMPLE
_+SAMPLE
_USER = Lab Manager
_GONIOMETER_CODE = 21
_STAGE_CODE = 7
; Goniometer : D8 theta/theta, stage : Chi drive
_SAMPLE_CHANGER_CODE = 0
_ATTACHMENTS_CODE = 0
_GONIOMETER_RADIUS = 280
_MONOCHROMATOR = 0
; Incident beam monochromator : None
_BETA_FILTER = N
_ANALYZER_CODE = 0
; Received beam analyzer : None
_DATEMEASURED = 25-Dec-2023 11:03:11
_RUNTIME = 11.18979
_WL_UNIT = A
_WL1 = 1.5406
_WL2 = 1.54439
_WL3 = 1.39222
_WLRATIO = 0.5
_ANODE = Cu
_V4_INF_USER = Lab Manager
_V4_INF_CREATOR = V5Converter
_V4_INF_CREATOR_VERSION = 4.4.16.0

; Data for range 1
_DRIVE = COUPLED
_STEPTIME = 57.6
_STEPSIZE = 0.019721
_STEPMODE = C
_START = 20
_THETA = 10
_2THETA = 20
_KHI = 0
_PHI = 0
_DETECTORSLIT = out
_AUX1 = 0
_TIMESTARTED = 0
_KV = 40
_MA = 40
_RANGE_WL = 1.5406
_3DPLANE = 0
_V4_PSD2THETA = 9999
_V4_PSDCHANNEL1 = 0
_V4_PSDAPERTURE = 2.839876
_V4_PSDTYPE = 5
_V4_PSDFIXED = 0
_V4_COUNTERS_MASK = 1
_V4_DRIVES_MASK = 0
_V4_ENCODERS_MASK = 0
_2THETACOUNTS = 1
; 2THETA	Cnt2_D1
20	396
20.2367	379
20.4733	379
20.71	404
20.9466	366
21.1833	378
21.4199	399
21.6566	389
21.8933	398
22.1299	410
22.3666	387
22.6032	432
22.8399	385
23.0765	353
23.3132	395
23.5498	379
23.7865	392
24.0232	421
24.2598	470
24.4965	648
24.7331	460
24.9698	404
25.2064	403
25.4431	392
25.6798	359
25.9164	414
26.1531	372
26.3897	381
26.6264	390
26.863	380
27.0997	373
27.3363	394
27.573	405
27.8097	396
28.0463	396
28.283	387
28.5196	395
28.7563	393
28.9929	402
29.2296	338
29.4663	431
29.7029	394
29.9396	426
30.1762	410
30.4129	384
30.6495	394
30.8862	415
31.1228	409
31.3595	395
31.5962	408
31.8328	412
32.0695	411
32.3061	404
32.5428	380
32.7794	429
33.0161	425
33.2528	565
33.4894	1075
33.7261	500
33.9627	401
34.1994	412
34.436	419
34.6727	370
34.9094	391
35.146	494
35.3827	444
35.6193	422
35.856	420
36.0926	455
36.3293	467
36.5659	419
36.8026	412
37.0393	393
37.2759	426
37.5126	375
37.7492	398
37.9859	439
38.2225	394
38.4592	411
38.6959	369
38.9325	371
39.1692	379
39.4058	430
39.6425	400
39.8791	390
40.1158	407
40.3524	376
40.5891	395
40.8258	381
41.0624	381
41.2991	504
41.5357	426
41.7724	398
42.009	394
42.2457	404
42.4824	447
42.719	437
42.9557	440
43.1923	436
43.429	483
43.6656	753
43.9023	14961
44.1389	3507
44.3756	569
44.6123	472
44.8489	429
45.0856	450
45.3222	415
45.5589	437
45.7955	398
46.0322	409
46.2689	401
46.5055	365
46.7422	407
46.9788	398
47.2155	416
47.4521	416
47.6888	391
47.9255	438
48.1621	402
48.3988	412
48.6354	377
48.8721	400
49.1087	390
49.3454	411
49.582	429
49.8187	397
50.0554	491
50.292	403
50.5287	420
50.7653	473
51.002	894
51.2386	3866
51.4753	698
51.712	393
51.9486	390
52.1853	400
52.4219	399
52.6586	394
52.8952	412
53.1319	395
53.3685	394
53.6052	378
53.8419	415
54.0785	421
54.3152	419
54.5518	529
54.7885	532
55.0251	397
55.2618	361
55.4985	331
55.7351	367
55.9718	381
56.2084	397
56.4451	381
56.6817	377
56.9184	371
57.155	372
57.3917	378
57.6284	364
57.865	360
58.1017	376
58.3383	433
58.575	339
58.8116	383
59.0483	379
59.285	374
59.5216	406
59.7583	339
59.9949	382
60.2316	369
60.4682	348
60.7049	329
60.9416	358
61.1782	386
61.4149	361
61.6515	351
61.8882	409
62.1248	361
62.3615	379
62.5981	385
62.8348	391
63.0715	403
63.3081	395
63.5448	341
63.7814	331
64.0181	374
64.2547	382
64.4914	372
64.7281	367
64.9647	369
65.2014	352
65.438	347
65.6747	366
65.9113	379
66.148	354
66.3846	365
66.6213	333
66.858	340
67.0946	341
67.3313	375
67.5679	361
67.8046	352
68.0412	338
68.2779	318
68.5146	355
68.7512	357
68.9879	340
69.2245	323
69.4612	348
69.6978	334
69.9345	310
70.1711	319
70.4078	363
70.6445	372
70.8811	311
71.1178	352
71.3544	343
71.5911	359
71.8277	341
72.0644	333
72.3011	340
72.5377	351
72.7744	343
73.011	328
73.2477	326
73.4843	345
73.721	371
73.9577	329
74.1943	322
74.431	307
74.6676	328
74.9043	347
75.1409	627
75.3776	868
75.6142	505
75.8509	301
76.0876	350
76.3242	330
76.5609	336
76.7975	326
77.0342	343
77.2708	300
77.5075	303
77.7442	306
77.9808	355
78.2175	330
78.4541	319
78.6908	294
78.9274	299
79.1641	326
79.4007	328
79.6374	278
79.8741	341
80.1107	316
80.3474	348
80.584	336
80.8207	293
81.0573	297
81.294	328
81.5307	325
81.7673	315
82.004	295
82.2406	308
82.4773	293
82.7139	288
82.9506	295
83.1873	350
83.4239	306
83.6606	354
83.8972	295
84.1339	313
84.3705	307
84.6072	304
84.8438	284
85.0805	271
85.3172	325
85.5538	309
85.7905	293
86.0271	301
86.2638	276
86.5004	297
86.7371	294
86.9738	286
87.2104	303
87.4471	282
87.6837	339
87.9204	293
88.157	287
88.3937	269
88.6303	292
88.867	251
89.1037	274
89.3403	324
89.577	264
89.8136	284
89.9911	297

File: 690-07.txt
?
20.0     9
20.23665 48
20.47331 25
20.70996 18
20.94662 26
21.18328 31
21.41993 38
21.65659 29
21.89325 18
22.12990 28
22.36656 27
22.60322 33
22.83987 22
23.07653 31
23.31318 29
23.54984 22
23.78650 35
24.02315 35
24.25981 89
24.49647 230
24.73312 46
24.96978 17
25.20644 47
25.44309 56
25.67975 31
25.91640 45
26.15306 21
26.38972 21
26.62637 45
26.86303 37
27.09969 19
27.33634 27
27.57300 36
27.80966 24
28.04631 27
28.28297 34
28.51963 33
28.75628 23
28.99294 30
29.22959 20
29.46625 16
29.70291 6
29.93956 56
30.17622 63
30.41288 52
30.64953 47
30.88619 32
31.12285 26
31.35950 21
31.59616 11
31.83281 17
32.06947 25
32.30613 23
32.54278 63
32.77944 34
33.01610 30
33.25275 65
33.48941 187
33.72607 89
33.96272 19
34.19938 26
34.43603 28
34.67269 42
34.90935 37
35.14600 60
35.38266 68
35.61932 130
35.85597 105
36.09263 182
36.32928 58
36.56594 47
36.80260 46
37.03926 104
37.27591 441
37.51257 27
37.74922 31
37.98588 26
38.22254 30
38.45919 31
38.69585 38
38.93251 27
39.16916 36
39.40582 42
39.64247 50
39.87913 14
40.11579 21
40.35244 14
40.58910 4
40.82576 1
41.06241 6
41.29907 15
41.53572 22
41.77238 4
42.00904 1
42.24570 7
42.48235 33
42.71901 31
42.95566 20
43.19232 99
43.42898 93
43.66563 299
43.90229 19246
44.13895 245
44.37560 49
44.61226 76
44.84891 30
45.08557 32
45.32223 24
45.55888 32
45.79554 33
46.0322  19
46.26885 12
46.50551 12
46.74217 30
46.97882 33
47.21548 41
47.45214 43
47.68879 34
47.92545 51
48.16210 34
48.39876 56
48.63542 23
48.87207 40
49.10873 34
49.34539 28
49.58204 52
49.81870 40
50.05535 74
50.29201 93
50.52867 59
50.76532 106
51.00198 685
51.23864 3393
51.47529 140
51.71195 53
51.94861 44
52.18526 44
52.42192 30
52.65858 27
52.89523 46
53.13189 17
53.36854 11
53.60520 42
53.84186 46
54.07851 10
54.31517 21
54.55183 44
54.78848 62
55.02514 31
55.26179 25
55.49845 36
55.73511 28
55.97176 24
56.20842 36
56.44508 24
56.68174 20
56.91839 47
57.15505 39
57.39170 32
57.62836 31
57.86502 30
58.10167 24
58.33833 42
58.57498 22
58.81164 31
59.04830 28
59.28495 16
59.52161 34
59.75827 25
59.99492 33
60.23158 24
60.46823 19
60.70489 28
60.94155 20
61.17820 21
61.41486 27
61.65152 31
61.88818 13
62.12483 25
62.36149 25
62.59814 41
62.83480 152
63.07146 43
63.30811 34
63.54477 41
63.78142 20
64.01808 24
64.25474 29
64.49140 29
64.72805 16
64.96471 36
65.20137 38
65.43802 15
65.67468 19
65.91133 23
66.14799 30
66.38465 31
66.62130 7
66.85796 18
67.09462 32
67.33127 17
67.56793 29
67.80458 29
68.04124 40
68.27790 30
68.51455 33
68.75121 47
68.98786 6
69.22452 48
69.46118 21
69.69783 46
69.93449 32
70.17115 13
70.40780 60
70.64446 24
70.88111 25
71.11777 39
71.35443 15
71.59108 24
71.82774 46
72.0644  3
72.30105 54
72.53771 8
72.77436 50
73.01102 20
73.24768 18
73.48434 44
73.72100 24
73.95765 36
74.19431 26
74.43096 47
74.66762 19
74.90428 38
75.14093 251
75.37759 95
75.61425 43
75.85090 20
76.08756 28
76.32421 8
76.56087 22
76.79753 14
77.03418 12
77.27084 27
77.5075  26
77.74415 8
77.98081 26
78.21746 18
78.45412 22
78.69078 23
78.92743 22
79.16409 24
79.40074 53
79.63740 18
79.87406 36
80.11071 29
80.34737 36
80.58403 32
80.82068 40
81.05734 25
81.29399 27
81.53065 49
81.76731 32
82.00396 33
82.24062 49
82.47728 27
82.71393 42
82.95059 24
83.18725 53
83.42391 44
83.66056 41
83.89722 41
84.13388 43
84.37053 41
84.60719 46
84.84384 34
85.08050 19
85.31716 32
85.55381 44
85.79047 22
86.02713 43
86.26378 34
86.50044 31
86.73709 20
86.97375 53
87.21041 29
87.44706 27
87.68372 32
87.92038 34
88.15703 53
88.39369 7
88.63034 36
88.86700 29
89.10366 37
89.34031 37
89.57697 34
89.81362 14
89.99111 35

File: 690-07.uxd
;content of D:\data\result\mecham\???\20231225-89741\690-07.raw - (Diffrac Plus V4 file)
_FILEVERSION = 3
_SAMPLE
_+SAMPLE
_USER = Lab Manager
_GONIOMETER_CODE = 21
_STAGE_CODE = 7
; Goniometer : D8 theta/theta, stage : Chi drive
_SAMPLE_CHANGER_CODE = 0
_ATTACHMENTS_CODE = 0
_GONIOMETER_RADIUS = 280
_MONOCHROMATOR = 0
; Incident beam monochromator : None
_BETA_FILTER = N
_ANALYZER_CODE = 0
; Received beam analyzer : None
_DATEMEASURED = 25-Dec-2023 11:22:40
_RUNTIME = 11.18933
_WL_UNIT = A
_WL1 = 1.5406
_WL2 = 1.54439
_WL3 = 1.39222
_WLRATIO = 0.5
_ANODE = Cu
_V4_INF_USER = Lab Manager
_V4_INF_CREATOR = V5Converter
_V4_INF_CREATOR_VERSION = 4.4.16.0

; Data for range 1
_DRIVE = COUPLED
_STEPTIME = 57.6
_STEPSIZE = 0.019721
_STEPMODE = C
_START = 20
_THETA = 10
_2THETA = 20
_KHI = 0
_PHI = 0
_DETECTORSLIT = out
_AUX1 = 0
_TIMESTARTED = 0
_KV = 40
_MA = 40
_RANGE_WL = 1.5406
_3DPLANE = 0
_V4_PSD2THETA = 9999
_V4_PSDCHANNEL1 = 0
_V4_PSDAPERTURE = 2.839876
_V4_PSDTYPE = 5
_V4_PSDFIXED = 0
_V4_COUNTERS_MASK = 1
_V4_DRIVES_MASK = 0
_V4_ENCODERS_MASK = 0
_2THETACOUNTS = 1
; 2THETA	Cnt2_D1
20	509
20.2367	541
20.4733	512
20.71	501
20.9466	464
21.1833	467
21.4199	440
21.6566	492
21.8933	496
22.1299	494
22.3666	505
22.6032	499
22.8399	461
23.0765	480
23.3132	461
23.5498	456
23.7865	480
24.0232	484
24.2598	594
24.4965	771
24.7331	513
24.9698	502
25.2064	552
25.4431	534
25.6798	519
25.9164	493
26.1531	473
26.3897	465
26.6264	510
26.863	492
27.0997	457
27.3363	467
27.573	483
27.8097	519
28.0463	493
28.283	490
28.5196	517
28.7563	492
28.9929	494
29.2296	466
29.4663	467
29.7029	456
29.9396	542
30.1762	531
30.4129	510
30.6495	465
30.8862	505
31.1228	480
31.3595	474
31.5962	432
31.8328	488
32.0695	458
32.3061	477
32.5428	531
32.7794	479
33.0161	457
33.2528	538
33.4894	684
33.7261	588
33.9627	484
34.1994	447
34.436	429
34.6727	424
34.9094	479
35.146	486
35.3827	514
35.6193	566
35.856	522
36.0926	618
36.3293	531
36.5659	469
36.8026	513
37.0393	575
37.2759	1062
37.5126	460
37.7492	431
37.9859	448
38.2225	445
38.4592	468
38.6959	472
38.9325	452
39.1692	473
39.4058	490
39.6425	509
39.8791	470
40.1158	461
40.3524	477
40.5891	443
40.8258	451
41.0624	462
41.2991	453
41.5357	506
41.7724	444
42.009	448
42.2457	486
42.4824	524
42.719	455
42.9557	502
43.1923	599
43.429	697
43.6656	855
43.9023	25225
44.1389	2168
44.3756	584
44.6123	543
44.8489	529
45.0856	507
45.3222	459
45.5589	459
45.7955	465
46.0322	468
46.2689	458
46.5055	437
46.7422	452
46.9788	475
47.2155	478
47.4521	461
47.6888	471
47.9255	466
48.1621	445
48.3988	473
48.6354	419
48.8721	454
49.1087	458
49.3454	459
49.582	494
49.8187	434
50.0554	513
50.292	521
50.5287	475
50.7653	524
51.002	1400
51.2386	9084
51.4753	914
51.712	502
51.9486	453
52.1853	460
52.4219	418
52.6586	462
52.8952	490
53.1319	451
53.3685	437
53.6052	453
53.8419	452
54.0785	407
54.3152	438
54.5518	427
54.7885	519
55.0251	453
55.2618	452
55.4985	459
55.7351	451
55.9718	442
56.2084	412
56.4451	411
56.6817	454
56.9184	460
57.155	447
57.3917	427
57.6284	404
57.865	422
58.1017	432
58.3383	406
58.575	374
58.8116	411
59.0483	417
59.285	369
59.5216	434
59.7583	383
59.9949	431
60.2316	361
60.4682	371
60.7049	387
60.9416	384
61.1782	380
61.4149	398
61.6515	367
61.8882	387
62.1248	384
62.3615	398
62.5981	388
62.8348	557
63.0715	465
63.3081	375
63.5448	373
63.7814	365
64.0181	393
64.2547	364
64.4914	387
64.7281	370
64.9647	409
65.2014	386
65.438	380
65.6747	355
65.9113	382
66.148	402
66.3846	378
66.6213	357
66.858	360
67.0946	378
67.3313	379
67.5679	367
67.8046	392
68.0412	365
68.2779	373
68.5146	379
68.7512	397
68.9879	356
69.2245	392
69.4612	351
69.6978	342
69.9345	345
70.1711	358
70.4078	378
70.6445	351
70.8811	337
71.1178	369
71.3544	343
71.5911	344
71.8277	388
72.0644	347
72.3011	375
72.5377	361
72.7744	386
73.011	346
73.2477	349
73.4843	396
73.721	356
73.9577	404
74.1943	356
74.431	403
74.6676	339
74.9043	364
75.1409	580
75.3776	587
75.6142	432
75.8509	333
76.0876	311
76.3242	336
76.5609	346
76.7975	362
77.0342	355
77.2708	354
77.5075	382
77.7442	365
77.9808	329
78.2175	351
78.4541	357
78.6908	365
78.9274	345
79.1641	353
79.4007	317
79.6374	341
79.8741	359
80.1107	305
80.3474	341
80.584	348
80.8207	342
81.0573	330
81.294	324
81.5307	323
81.7673	335
82.004	321
82.2406	336
82.4773	304
82.7139	296
82.9506	325
83.1873	352
83.4239	285
83.6606	319
83.8972	297
84.1339	338
84.3705	345
84.6072	354
84.8438	342
85.0805	322
85.3172	288
85.5538	338
85.7905	327
86.0271	311
86.2638	278
86.5004	305
86.7371	293
86.9738	326
87.2104	300
87.4471	311
87.6837	329
87.9204	311
88.157	284
88.3937	309
88.6303	308
88.867	300
89.1037	312
89.3403	331
89.577	328
89.8136	311
89.9911	292