Folder: Comparison-of-the-corrosion-behavior-of-four-Fe-Cr-Ni-austenitic-alloys-in-supercritical-water/XRD

Note: README.md
# Comparison-of-the-corrosion-behavior-of-four-Fe-Cr-Ni-austenitic-alloys-in-supercritical-water
For《 Comparison of the corrosion behavior of four Fe-Cr-Ni austenitic alloys in supercritical water》, all the original data, processed data, and scripts used in the study are made publicly available here.

File: 310-01.txt
?
20.0     1
20.23665 11
20.47331 7
20.70996 20
20.94662 7
21.18328 7
21.41993 16
21.65659 16
21.89325 20
22.12990 17
22.36656 17
22.60322 14
22.83987 14
23.07653 14
23.31318 17
23.54984 4
23.78650 22
24.02315 28
24.25981 94
24.49647 171
24.73312 27
24.96978 15
25.20644 10
25.44309 13
25.67975 15
25.91640 8
26.15306 7
26.38972 7
26.62637 11
26.86303 11
27.09969 15
27.33634 21
27.57300 20
27.80966 16
28.04631 12
28.28297 26
28.51963 5
28.75628 18
28.99294 13
29.22959 27
29.46625 16
29.70291 17
29.93956 22
30.17622 31
30.41288 13
30.64953 20
30.88619 18
31.12285 11
31.35950 18
31.59616 12
31.83281 24
32.06947 0
32.30613 19
32.54278 12
32.77944 22
33.01610 29
33.25275 105
33.48941 229
33.72607 52
33.96272 34
34.19938 18
34.43603 10
34.67269 3
34.90935 12
35.14600 19
35.38266 27
35.61932 36
35.85597 125
36.09263 134
36.32928 36
36.56594 23
36.80260 20
37.03926 23
37.27591 16
37.51257 20
37.74922 14
37.98588 18
38.22254 9
38.45919 24
38.69585 8
38.93251 16
39.16916 16
39.40582 13
39.64247 18
39.87913 25
40.11579 8
40.35244 20
40.58910 9
40.82576 13
41.06241 50
41.29907 101
41.53572 34
41.77238 16
42.00904 14
42.24570 19
42.48235 10
42.71901 21
42.95566 26
43.19232 24
43.42898 74
43.66563 2193
43.90229 224
44.13895 57
44.37560 38
44.61226 20
44.84891 14
45.08557 12
45.32223 12
45.55888 10
45.79554 11
46.0322  9
46.26885 17
46.50551 14
46.74217 9
46.97882 10
47.21548 15
47.45214 14
47.68879 23
47.92545 9
48.16210 13
48.39876 14
48.63542 19
48.87207 20
49.10873 13
49.34539 20
49.58204 39
49.81870 40
50.05535 57
50.29201 47
50.52867 74
50.76532 901
51.00198 654
51.23864 67
51.47529 38
51.71195 22
51.94861 18
52.18526 19
52.42192 9
52.65858 2
52.89523 9
53.13189 16
53.36854 14
53.60520 11
53.84186 21
54.07851 15
54.31517 38
54.55183 76
54.78848 58
55.02514 22
55.26179 17
55.49845 19
55.73511 18
55.97176 14
56.20842 13
56.44508 18
56.68174 20
56.91839 9
57.15505 16
57.39170 23
57.62836 12
57.86502 24
58.10167 27
58.33833 20
58.57498 9
58.81164 23
59.04830 14
59.28495 8
59.52161 10
59.75827 10
59.99492 6
60.23158 8
60.46823 14
60.70489 8
60.94155 14
61.17820 15
61.41486 0
61.65152 17
61.88818 11
62.12483 7
62.36149 18
62.59814 16
62.83480 48
63.07146 57
63.30811 41
63.54477 10
63.78142 8
64.01808 11
64.25474 26
64.49140 17
64.72805 18
64.96471 32
65.20137 13
65.43802 20
65.67468 12
65.91133 26
66.14799 17
66.38465 11
66.62130 17
66.85796 11
67.09462 16
67.33127 13
67.56793 19
67.80458 17
68.04124 14
68.27790 21
68.51455 12
68.75121 29
68.98786 13
69.22452 21
69.46118 18
69.69783 14
69.93449 12
70.17115 15
70.40780 17
70.64446 10
70.88111 12
71.11777 17
71.35443 5
71.59108 15
71.82774 10
72.0644  29
72.30105 12
72.53771 18
72.77436 21
73.01102 16
73.24768 12
73.48434 11
73.72100 18
73.95765 20
74.19431 10
74.43096 46
74.66762 420
74.90428 330
75.14093 35
75.37759 20
75.61425 1
75.85090 21
76.08756 10
76.32421 20
76.56087 4
76.79753 22
77.03418 4
77.27084 12
77.5075  20
77.74415 6
77.98081 12
78.21746 9
78.45412 6
78.69078 13
78.92743 13
79.16409 7
79.40074 14
79.63740 0
79.87406 16
80.11071 8
80.34737 10
80.58403 9
80.82068 14
81.05734 8
81.29399 9
81.53065 11
81.76731 11
82.00396 12
82.24062 13
82.47728 6
82.71393 12
82.95059 10
83.18725 17
83.42391 12
83.66056 5
83.89722 15
84.13388 15
84.37053 12
84.60719 5
84.84384 12
85.08050 17
85.31716 10
85.55381 14
85.79047 13
86.02713 17
86.26378 21
86.50044 18
86.73709 11
86.97375 19
87.21041 11
87.44706 14
87.68372 20
87.92038 17
88.15703 13
88.39369 4
88.63034 22
88.86700 18
89.10366 8
89.34031 19
89.57697 24
89.81362 26
89.99111 21

File: 310-01.uxd
;content of D:\data\result\mecham\???\20231225-89741\310-01.raw - (Diffrac Plus V4 file)
_FILEVERSION = 3
_SAMPLE
_+SAMPLE
_USER = Lab Manager
_GONIOMETER_CODE = 21
_STAGE_CODE = 7
; Goniometer : D8 theta/theta, stage : Chi drive
_SAMPLE_CHANGER_CODE = 0
_ATTACHMENTS_CODE = 0
_GONIOMETER_RADIUS = 280
_MONOCHROMATOR = 0
; Incident beam monochromator : None
_BETA_FILTER = N
_ANALYZER_CODE = 0
; Received beam analyzer : None
_DATEMEASURED = 25-Dec-2023 09:45:02
_RUNTIME = 11.28583
_WL_UNIT = A
_WL1 = 1.5406
_WL2 = 1.54439
_WL3 = 1.39222
_WLRATIO = 0.5
_ANODE = Cu
_V4_INF_USER = Lab Manager
_V4_INF_CREATOR = V5Converter
_V4_INF_CREATOR_VERSION = 4.4.16.0

; Data for range 1
_DRIVE = COUPLED
_STEPTIME = 57.6
_STEPSIZE = 0.019721
_STEPMODE = C
_START = 20
_THETA = 10
_2THETA = 20
_KHI = 0
_PHI = 0
_DETECTORSLIT = out
_AUX1 = 0
_TIMESTARTED = 0
_KV = 40
_MA = 40
_RANGE_WL = 1.5406
_3DPLANE = 0
_V4_PSD2THETA = 9999
_V4_PSDCHANNEL1 = 0
_V4_PSDAPERTURE = 2.839876
_V4_PSDTYPE = 5
_V4_PSDFIXED = 0
_V4_COUNTERS_MASK = 1
_V4_DRIVES_MASK = 0
_V4_ENCODERS_MASK = 0
_2THETACOUNTS = 1
; 2THETA	Cnt2_D1
20	140
20.2367	154
20.4733	146
20.71	144
20.9466	129
21.1833	128
21.4199	134
21.6566	140
21.8933	147
22.1299	145
22.3666	131
22.6032	129
22.8399	144
23.0765	134
23.3132	128
23.5498	122
23.7865	119
24.0232	188
24.2598	243
24.4965	414
24.7331	150
24.9698	129
25.2064	117
25.4431	147
25.6798	112
25.9164	130
26.1531	120
26.3897	128
26.6264	139
26.863	114
27.0997	134
27.3363	144
27.573	150
27.8097	116
28.0463	122
28.283	134
28.5196	128
28.7563	144
28.9929	127
29.2296	152
29.4663	121
29.7029	134
29.9396	112
30.1762	134
30.4129	104
30.6495	112
30.8862	142
31.1228	117
31.3595	124
31.5962	123
31.8328	125
32.0695	125
32.3061	129
32.5428	121
32.7794	144
33.0161	148
33.2528	244
33.4894	486
33.7261	215
33.9627	156
34.1994	146
34.436	130
34.6727	127
34.9094	121
35.146	141
35.3827	138
35.6193	182
35.856	281
36.0926	305
36.3293	167
36.5659	153
36.8026	138
37.0393	141
37.2759	132
37.5126	153
37.7492	134
37.9859	128
38.2225	123
38.4592	130
38.6959	111
38.9325	116
39.1692	125
39.4058	121
39.6425	146
39.8791	142
40.1158	121
40.3524	155
40.5891	116
40.8258	115
41.0624	150
41.2991	255
41.5357	208
41.7724	154
42.009	138
42.2457	130
42.4824	146
42.719	135
42.9557	148
43.1923	143
43.429	229
43.6656	2556
43.9023	1627
44.1389	205
44.3756	165
44.6123	157
44.8489	129
45.0856	110
45.3222	118
45.5589	119
45.7955	121
46.0322	132
46.2689	145
46.5055	128
46.7422	113
46.9788	136
47.2155	128
47.4521	123
47.6888	123
47.9255	115
48.1621	115
48.3988	113
48.6354	121
48.8721	105
49.1087	108
49.3454	135
49.582	154
49.8187	164
50.0554	207
50.292	165
50.5287	183
50.7653	1049
51.002	1312
51.2386	256
51.4753	144
51.712	130
51.9486	121
52.1853	114
52.4219	108
52.6586	102
52.8952	99
53.1319	119
53.3685	111
53.6052	103
53.8419	122
54.0785	118
54.3152	149
54.5518	206
54.7885	185
55.0251	145
55.2618	115
55.4985	138
55.7351	98
55.9718	105
56.2084	117
56.4451	122
56.6817	100
56.9184	114
57.155	99
57.3917	112
57.6284	95
57.865	123
58.1017	117
58.3383	97
58.575	105
58.8116	118
59.0483	105
59.285	106
59.5216	105
59.7583	104
59.9949	110
60.2316	87
60.4682	117
60.7049	104
60.9416	114
61.1782	100
61.4149	90
61.6515	117
61.8882	111
62.1248	114
62.3615	92
62.5981	135
62.8348	156
63.0715	172
63.3081	160
63.5448	116
63.7814	108
64.0181	105
64.2547	133
64.4914	122
64.7281	135
64.9647	143
65.2014	107
65.438	102
65.6747	118
65.9113	110
66.148	127
66.3846	105
66.6213	133
66.858	120
67.0946	116
67.3313	110
67.5679	114
67.8046	111
68.0412	126
68.2779	113
68.5146	109
68.7512	143
68.9879	122
69.2245	102
69.4612	120
69.6978	106
69.9345	104
70.1711	115
70.4078	106
70.6445	115
70.8811	101
71.1178	122
71.3544	106
71.5911	111
71.8277	95
72.0644	97
72.3011	116
72.5377	121
72.7744	136
73.011	114
73.2477	114
73.4843	118
73.721	126
73.9577	128
74.1943	107
74.431	153
74.6676	568
74.9043	707
75.1409	305
75.3776	130
75.6142	102
75.8509	116
76.0876	113
76.3242	131
76.5609	113
76.7975	121
77.0342	113
77.2708	115
77.5075	124
77.7442	111
77.9808	100
78.2175	126
78.4541	108
78.6908	115
78.9274	99
79.1641	86
79.4007	124
79.6374	94
79.8741	113
80.1107	114
80.3474	110
80.584	116
80.8207	113
81.0573	93
81.294	104
81.5307	112
81.7673	110
82.004	104
82.2406	110
82.4773	86
82.7139	91
82.9506	105
83.1873	117
83.4239	119
83.6606	108
83.8972	114
84.1339	98
84.3705	94
84.6072	94
84.8438	109
85.0805	106
85.3172	99
85.5538	113
85.7905	82
86.0271	84
86.2638	105
86.5004	111
86.7371	114
86.9738	95
87.2104	105
87.4471	116
87.6837	127
87.9204	117
88.157	97
88.3937	93
88.6303	116
88.867	101
89.1037	97
89.3403	106
89.577	120
89.8136	116
89.9911	101

File: 310-07.txt
?
20.0     8
20.23665 7
20.47331 6
20.70996 7
20.94662 9
21.18328 5
21.41993 10
21.65659 6
21.89325 3
22.12990 12
22.36656 5
22.60322 15
22.83987 7
23.07653 9
23.31318 9
23.54984 11
23.78650 29
24.02315 99
24.25981 27
24.49647 26
24.73312 22
24.96978 19
25.20644 15
25.44309 9
25.67975 19
25.91640 15
26.15306 3
26.38972 23
26.62637 18
26.86303 6
27.09969 14
27.33634 20
27.57300 14
27.80966 13
28.04631 28
28.28297 18
28.51963 17
28.75628 11
28.99294 21
29.22959 21
29.46625 15
29.70291 19
29.93956 28
30.17622 48
30.41288 5
30.64953 11
30.88619 7
31.12285 9
31.35950 12
31.59616 11
31.83281 3
32.06947 10
32.30613 6
32.54278 6
32.77944 18
33.01610 324
33.25275 23
33.48941 9
33.72607 8
33.96272 19
34.19938 7
34.43603 4
34.67269 15
34.90935 19
35.14600 26
35.38266 401
35.61932 242
35.85597 23
36.09263 18
36.32928 0
36.56594 12
36.80260 84
37.03926 1052
37.27591 339
37.51257 7
37.74922 6
37.98588 11
38.22254 7
38.45919 10
38.69585 13
38.93251 381
39.16916 1297
39.40582 79
39.64247 24
39.87913 9
40.11579 23
40.35244 19
40.58910 282
40.82576 225
41.06241 17
41.29907 18
41.53572 9
41.77238 15
42.00904 5
42.24570 12
42.48235 24
42.71901 6
42.95566 24
43.19232 51
43.42898 234
43.66563 142
43.90229 34
44.13895 21
44.37560 10
44.61226 11
44.84891 15
45.08557 17
45.32223 13
45.55888 20
45.79554 13
46.0322  12
46.26885 17
46.50551 13
46.74217 12
46.97882 17
47.21548 17
47.45214 25
47.68879 11
47.92545 14
48.16210 14
48.39876 16
48.63542 13
48.87207 22
49.10873 35
49.34539 131
49.58204 17
49.81870 20
50.05535 18
50.29201 28
50.52867 52
50.76532 93
51.00198 18
51.23864 8
51.47529 6
51.71195 6
51.94861 14
52.18526 16
52.42192 14
52.65858 9
52.89523 16
53.13189 18
53.36854 39
53.60520 50
53.84186 114
54.07851 68
54.31517 16
54.55183 21
54.78848 21
55.02514 6
55.26179 19
55.49845 26
55.73511 10
55.97176 24
56.20842 23
56.44508 25
56.68174 67
56.91839 543
57.15505 814
57.39170 152
57.62836 41
57.86502 21
58.10167 9
58.33833 12
58.57498 13
58.81164 6
59.04830 17
59.28495 16
59.52161 15
59.75827 10
59.99492 8
60.23158 14
60.46823 18
60.70489 16
60.94155 9
61.17820 13
61.41486 9
61.65152 13
61.88818 38
62.12483 150
62.36149 221
62.59814 80
62.83480 63
63.07146 30
63.30811 17
63.54477 12
63.78142 35
64.01808 22
64.25474 17
64.49140 9
64.72805 4
64.96471 20
65.20137 4
65.43802 3
65.67468 14
65.91133 7
66.14799 3
66.38465 9
66.62130 7
66.85796 12
67.09462 7
67.33127 3
67.56793 5
67.80458 5
68.04124 15
68.27790 5
68.51455 12
68.75121 2
68.98786 5
69.22452 2
69.46118 15
69.69783 8
69.93449 10
70.17115 15
70.40780 8
70.64446 9
70.88111 10
71.11777 19
71.35443 12
71.59108 39
71.82774 254
72.0644  22
72.30105 33
72.53771 22
72.77436 24
73.01102 16
73.24768 18
73.48434 17
73.72100 16
73.95765 44
74.19431 152
74.43096 59
74.66762 137
74.90428 40
75.14093 26
75.37759 57
75.61425 8
75.85090 15
76.08756 12
76.32421 17
76.56087 14
76.79753 13
77.03418 15
77.27084 19
77.5075  18
77.74415 6
77.98081 13
78.21746 12
78.45412 19
78.69078 43
78.92743 97
79.16409 353
79.40074 104
79.63740 16
79.87406 2
80.11071 8
80.34737 13
80.58403 10
80.82068 10
81.05734 3
81.29399 9
81.53065 0
81.76731 5
82.00396 7
82.24062 7
82.47728 3
82.71393 13
82.95059 16
83.18725 10
83.42391 15
83.66056 11
83.89722 22
84.13388 63
84.37053 49
84.60719 26
84.84384 34
85.08050 16
85.31716 12
85.55381 13
85.79047 8
86.02713 7
86.26378 20
86.50044 16
86.73709 30
86.97375 16
87.21041 4
87.44706 17
87.68372 14
87.92038 21
88.15703 45
88.39369 89
88.63034 17
88.86700 5
89.10366 7
89.34031 14
89.57697 31
89.81362 86
89.99111 110

File: 310-07.uxd
;content of D:\data\result\mecham\???\20231225-89741\310-07.raw - (Diffrac Plus V4 file)
_FILEVERSION = 3
_SAMPLE
_+SAMPLE
_USER = Lab Manager
_GONIOMETER_CODE = 21
_STAGE_CODE = 7
; Goniometer : D8 theta/theta, stage : Chi drive
_SAMPLE_CHANGER_CODE = 0
_ATTACHMENTS_CODE = 0
_GONIOMETER_RADIUS = 280
_MONOCHROMATOR = 0
; Incident beam monochromator : None
_BETA_FILTER = N
_ANALYZER_CODE = 0
; Received beam analyzer : None
_DATEMEASURED = 25-Dec-2023 10:04:43
_RUNTIME = 11.19268
_WL_UNIT = A
_WL1 = 1.5406
_WL2 = 1.54439
_WL3 = 1.39222
_WLRATIO = 0.5
_ANODE = Cu
_V4_INF_USER = Lab Manager
_V4_INF_CREATOR = V5Converter
_V4_INF_CREATOR_VERSION = 4.4.16.0

; Data for range 1
_DRIVE = COUPLED
_STEPTIME = 57.6
_STEPSIZE = 0.019721
_STEPMODE = C
_START = 20
_THETA = 10
_2THETA = 20
_KHI = 0
_PHI = 0
_DETECTORSLIT = out
_AUX1 = 0
_TIMESTARTED = 0
_KV = 40
_MA = 40
_RANGE_WL = 1.5406
_3DPLANE = 0
_V4_PSD2THETA = 9999
_V4_PSDCHANNEL1 = 0
_V4_PSDAPERTURE = 2.839876
_V4_PSDTYPE = 5
_V4_PSDFIXED = 0
_V4_COUNTERS_MASK = 1
_V4_DRIVES_MASK = 0
_V4_ENCODERS_MASK = 0
_2THETACOUNTS = 1
; 2THETA	Cnt2_D1
20	153
20.2367	145
20.4733	134
20.71	152
20.9466	142
21.1833	132
21.4199	142
21.6566	127
21.8933	141
22.1299	144
22.3666	121
22.6032	152
22.8399	141
23.0765	144
23.3132	118
23.5498	120
23.7865	167
24.0232	240
24.2598	160
24.4965	118
24.7331	140
24.9698	142
25.2064	133
25.4431	123
25.6798	130
25.9164	122
26.1531	110
26.3897	139
26.6264	124
26.863	97
27.0997	127
27.3363	154
27.573	129
27.8097	135
28.0463	144
28.283	138
28.5196	136
28.7563	144
28.9929	115
29.2296	144
29.4663	123
29.7029	125
29.9396	146
30.1762	199
30.4129	130
30.6495	129
30.8862	126
31.1228	123
31.3595	137
31.5962	142
31.8328	115
32.0695	121
32.3061	120
32.5428	106
32.7794	159
33.0161	505
33.2528	243
33.4894	130
33.7261	123
33.9627	141
34.1994	130
34.436	116
34.6727	126
34.9094	155
35.146	183
35.3827	630
35.6193	639
35.856	163
36.0926	156
36.3293	136
36.5659	134
36.8026	200
37.0393	1476
37.2759	952
37.5126	147
37.7492	140
37.9859	134
38.2225	155
38.4592	136
38.6959	154
38.9325	529
39.1692	1988
39.4058	506
39.6425	161
39.8791	133
40.1158	155
40.3524	130
40.5891	462
40.8258	578
41.0624	154
41.2991	141
41.5357	145
41.7724	138
42.009	110
42.2457	136
42.4824	117
42.719	130
42.9557	120
43.1923	201
43.429	408
43.6656	352
43.9023	145
44.1389	147
44.3756	113
44.6123	119
44.8489	121
45.0856	107
45.3222	119
45.5589	134
45.7955	125
46.0322	111
46.2689	114
46.5055	122
46.7422	136
46.9788	114
47.2155	127
47.4521	103
47.6888	122
47.9255	123
48.1621	113
48.3988	131
48.6354	133
48.8721	134
49.1087	141
49.3454	270
49.582	164
49.8187	118
50.0554	135
50.292	143
50.5287	164
50.7653	241
51.002	161
51.2386	125
51.4753	119
51.712	122
51.9486	115
52.1853	129
52.4219	121
52.6586	113
52.8952	115
53.1319	141
53.3685	150
53.6052	195
53.8419	240
54.0785	250
54.3152	133
54.5518	132
54.7885	142
55.0251	110
55.2618	142
55.4985	149
55.7351	119
55.9718	136
56.2084	142
56.4451	142
56.6817	193
56.9184	676
57.155	1371
57.3917	487
57.6284	225
57.865	121
58.1017	115
58.3383	128
58.575	102
58.8116	114
59.0483	127
59.285	143
59.5216	137
59.7583	109
59.9949	113
60.2316	130
60.4682	111
60.7049	127
60.9416	130
61.1782	124
61.4149	136
61.6515	124
61.8882	152
62.1248	257
62.3615	509
62.5981	281
62.8348	190
63.0715	172
63.3081	152
63.5448	125
63.7814	161
64.0181	180
64.2547	127
64.4914	123
64.7281	108
64.9647	141
65.2014	127
65.438	127
65.6747	137
65.9113	116
66.148	116
66.3846	138
66.6213	133
66.858	137
67.0946	125
67.3313	129
67.5679	108
67.8046	120
68.0412	137
68.2779	114
68.5146	137
68.7512	128
68.9879	132
69.2245	103
69.4612	122
69.6978	133
69.9345	146
70.1711	149
70.4078	128
70.6445	143
70.8811	129
71.1178	139
71.3544	148
71.5911	168
71.8277	412
72.0644	250
72.3011	176
72.5377	147
72.7744	160
73.011	147
73.2477	137
73.4843	156
73.721	145
73.9577	167
74.1943	313
74.431	247
74.6676	323
74.9043	234
75.1409	177
75.3776	165
75.6142	161
75.8509	148
76.0876	145
76.3242	140
76.5609	172
76.7975	132
77.0342	127
77.2708	168
77.5075	155
77.7442	143
77.9808	159
78.2175	132
78.4541	181
78.6908	197
78.9274	256
79.1641	542
79.4007	410
79.6374	207
79.8741	149
80.1107	163
80.3474	145
80.584	153
80.8207	151
81.0573	142
81.294	148
81.5307	147
81.7673	136
82.004	145
82.2406	144
82.4773	124
82.7139	143
82.9506	146
83.1873	142
83.4239	148
83.6606	173
83.8972	152
84.1339	205
84.3705	211
84.6072	198
84.8438	164
85.0805	178
85.3172	146
85.5538	169
85.7905	148
86.0271	133
86.2638	123
86.5004	160
86.7371	162
86.9738	162
87.2104	154
87.4471	136
87.6837	128
87.9204	172
88.157	202
88.3937	251
88.6303	181
88.867	126
89.1037	125
89.3403	128
89.577	159
89.8136	234
89.9911	221

File: 600-02.txt
?
20.0     5
20.23665 12
20.47331 22
20.70996 15
20.94662 19
21.18328 18
21.41993 16
21.65659 30
21.89325 35
22.12990 9
22.36656 38
22.60322 31
22.83987 17
23.07653 7
23.31318 50
23.54984 11
23.78650 19
24.02315 27
24.25981 76
24.49647 118
24.73312 19
24.96978 2
25.20644 35
25.44309 29
25.67975 10
25.91640 12
26.15306 12
26.38972 13
26.62637 41
26.86303 14
27.09969 0
27.33634 12
27.57300 18
27.80966 5
28.04631 19
28.28297 15
28.51963 3
28.75628 9
28.99294 22
29.22959 23
29.46625 4
29.70291 15
29.93956 19
30.17622 25
30.41288 10
30.64953 16
30.88619 19
31.12285 11
31.35950 16
31.59616 9
31.83281 27
32.06947 10
32.30613 50
32.54278 17
32.77944 23
33.01610 20
33.25275 60
33.48941 132
33.72607 63
33.96272 38
34.19938 23
34.43603 31
34.67269 43
34.90935 34
35.14600 27
35.38266 27
35.61932 67
35.85597 97
36.09263 61
36.32928 33
36.56594 34
36.80260 39
37.03926 45
37.27591 36
37.51257 25
37.74922 66
37.98588 47
38.22254 34
38.45919 20
38.69585 36
38.93251 25
39.16916 13
39.40582 31
39.64247 42
39.87913 18
40.11579 58
40.35244 38
40.58910 17
40.82576 34
41.06241 40
41.29907 30
41.53572 37
41.77238 33
42.00904 54
42.24570 47
42.48235 13
42.71901 27
42.95566 55
43.19232 96
43.42898 90
43.66563 86
43.90229 298
44.13895 11443
44.37560 335
44.61226 72
44.84891 81
45.08557 54
45.32223 50
45.55888 45
45.79554 29
46.0322  35
46.26885 23
46.50551 30
46.74217 29
46.97882 34
47.21548 27
47.45214 10
47.68879 33
47.92545 30
48.16210 40
48.39876 25
48.63542 33
48.87207 28
49.10873 29
49.34539 34
49.58204 46
49.81870 37
50.05535 47
50.29201 52
50.52867 33
50.76532 46
51.00198 53
51.23864 310
51.47529 3051
51.71195 139
51.94861 41
52.18526 42
52.42192 37
52.65858 39
52.89523 18
53.13189 39
53.36854 34
53.60520 23
53.84186 21
54.07851 29
54.31517 15
54.55183 59
54.78848 50
55.02514 33
55.26179 34
55.49845 21
55.73511 18
55.97176 35
56.20842 37
56.44508 22
56.68174 20
56.91839 18
57.15505 20
57.39170 27
57.62836 20
57.86502 24
58.10167 23
58.33833 17
58.57498 26
58.81164 3
59.04830 10
59.28495 18
59.52161 19
59.75827 0
59.99492 16
60.23158 19
60.46823 5
60.70489 19
60.94155 19
61.17820 9
61.41486 13
61.65152 15
61.88818 17
62.12483 24
62.36149 22
62.59814 23
62.83480 54
63.07146 44
63.30811 25
63.54477 18
63.78142 32
64.01808 19
64.25474 26
64.49140 19
64.72805 22
64.96471 11
65.20137 44
65.43802 11
65.67468 17
65.91133 21
66.14799 28
66.38465 27
66.62130 20
66.85796 29
67.09462 16
67.33127 35
67.56793 3
67.80458 48
68.04124 6
68.27790 30
68.51455 50
68.75121 20
68.98786 34
69.22452 29
69.46118 7
69.69783 27
69.93449 24
70.17115 20
70.40780 14
70.64446 17
70.88111 26
71.11777 24
71.35443 40
71.59108 15
71.82774 19
72.0644  25
72.30105 33
72.53771 20
72.77436 18
73.01102 40
73.24768 6
73.48434 28
73.72100 14
73.95765 10
74.19431 33
74.43096 6
74.66762 41
74.90428 35
75.14093 36
75.37759 41
75.61425 1181
75.85090 353
76.08756 65
76.32421 25
76.56087 12
76.79753 34
77.03418 26
77.27084 15
77.5075  11
77.74415 35
77.98081 21
78.21746 24
78.45412 35
78.69078 7
78.92743 35
79.16409 24
79.40074 35
79.63740 15
79.87406 26
80.11071 24
80.34737 27
80.58403 35
80.82068 12
81.05734 33
81.29399 17
81.53065 44
81.76731 14
82.00396 33
82.24062 36
82.47728 28
82.71393 29
82.95059 37
83.18725 34
83.42391 29
83.66056 9
83.89722 40
84.13388 23
84.37053 39
84.60719 26
84.84384 11
85.08050 41
85.31716 25
85.55381 24
85.79047 26
86.02713 16
86.26378 16
86.50044 21
86.73709 13
86.97375 21
87.21041 15
87.44706 19
87.68372 13
87.92038 14
88.15703 10
88.39369 33
88.63034 16
88.86700 14
89.10366 13
89.34031 9
89.57697 11
89.81362 8
89.99111 30

File: 600-02.uxd
;content of D:\data\result\mecham\???\20231225-89741\600-02.raw - (Diffrac Plus V4 file)
_FILEVERSION = 3
_SAMPLE
_+SAMPLE
_USER = Lab Manager
_GONIOMETER_CODE = 21
_STAGE_CODE = 7
; Goniometer : D8 theta/theta, stage : Chi drive
_SAMPLE_CHANGER_CODE = 0
_ATTACHMENTS_CODE = 0
_GONIOMETER_RADIUS = 280
_MONOCHROMATOR = 0
; Incident beam monochromator : None
_BETA_FILTER = N
_ANALYZER_CODE = 0
; Received beam analyzer : None
_DATEMEASURED = 25-Dec-2023 10:24:13
_RUNTIME = 11.18869
_WL_UNIT = A
_WL1 = 1.5406
_WL2 = 1.54439
_WL3 = 1.39222
_WLRATIO = 0.5
_ANODE = Cu
_V4_INF_USER = Lab Manager
_V4_INF_CREATOR = V5Converter
_V4_INF_CREATOR_VERSION = 4.4.16.0

; Data for range 1
_DRIVE = COUPLED
_STEPTIME = 57.6
_STEPSIZE = 0.019721
_STEPMODE = C
_START = 20
_THETA = 10
_2THETA = 20
_KHI = 0
_PHI = 0
_DETECTORSLIT = out
_AUX1 = 0
_TIMESTARTED = 0
_KV = 40
_MA = 40
_RANGE_WL = 1.5406
_3DPLANE = 0
_V4_PSD2THETA = 9999
_V4_PSDCHANNEL1 = 0
_V4_PSDAPERTURE = 2.839876
_V4_PSDTYPE = 5
_V4_PSDFIXED = 0
_V4_COUNTERS_MASK = 1
_V4_DRIVES_MASK = 0
_V4_ENCODERS_MASK = 0
_2THETACOUNTS = 1
; 2THETA	Cnt2_D1
20	551
20.2367	551
20.4733	534
20.71	533
20.9466	541
21.1833	544
21.4199	511
21.6566	544
21.8933	517
22.1299	548
22.3666	570
22.6032	527
22.8399	553
23.0765	520
23.3132	531
23.5498	499
23.7865	519
24.0232	549
24.2598	639
24.4965	654
24.7331	583
24.9698	519
25.2064	563
25.4431	596
25.6798	542
25.9164	508
26.1531	545
26.3897	548
26.6264	581
26.863	585
27.0997	518
27.3363	497
27.573	477
27.8097	546
28.0463	574
28.283	601
28.5196	524
28.7563	546
28.9929	558
29.2296	583
29.4663	488
29.7029	557
29.9396	564
30.1762	556
30.4129	581
30.6495	557
30.8862	553
31.1228	557
31.3595	576
31.5962	552
31.8328	578
32.0695	541
32.3061	550
32.5428	572
32.7794	546
33.0161	572
33.2528	601
33.4894	789
33.7261	602
33.9627	588
34.1994	553
34.436	515
34.6727	572
34.9094	549
35.146	562
35.3827	574
35.6193	607
35.856	696
36.0926	584
36.3293	558
36.5659	552
36.8026	576
37.0393	619
37.2759	582
37.5126	572
37.7492	583
37.9859	514
38.2225	561
38.4592	517
38.6959	587
38.9325	552
39.1692	526
39.4058	541
39.6425	556
39.8791	536
40.1158	572
40.3524	520
40.5891	503
40.8258	532
41.0624	531
41.2991	569
41.5357	551
41.7724	553
42.009	586
42.2457	558
42.4824	506
42.719	592
42.9557	636
43.1923	674
43.429	655
43.6656	610
43.9023	880
44.1389	13580
44.3756	2214
44.6123	656
44.8489	612
45.0856	588
45.3222	609
45.5589	584
45.7955	573
46.0322	560
46.2689	545
46.5055	567
46.7422	540
46.9788	576
47.2155	535
47.4521	504
47.6888	567
47.9255	528
48.1621	561
48.3988	527
48.6354	534
48.8721	551
49.1087	525
49.3454	575
49.582	512
49.8187	559
50.0554	631
50.292	534
50.5287	588
50.7653	536
51.002	536
51.2386	855
51.4753	4423
51.712	986
51.9486	597
52.1853	564
52.4219	546
52.6586	546
52.8952	535
53.1319	539
53.3685	529
53.6052	537
53.8419	505
54.0785	530
54.3152	558
54.5518	564
54.7885	563
55.0251	532
55.2618	536
55.4985	476
55.7351	522
55.9718	550
56.2084	515
56.4451	525
56.6817	505
56.9184	512
57.155	510
57.3917	507
57.6284	497
57.865	509
58.1017	480
58.3383	460
58.575	513
58.8116	491
59.0483	471
59.285	473
59.5216	488
59.7583	485
59.9949	476
60.2316	500
60.4682	500
60.7049	495
60.9416	508
61.1782	484
61.4149	506
61.6515	476
61.8882	492
62.1248	491
62.3615	536
62.5981	481
62.8348	528
63.0715	553
63.3081	517
63.5448	516
63.7814	516
64.0181	468
64.2547	475
64.4914	490
64.7281	467
64.9647	489
65.2014	487
65.438	457
65.6747	479
65.9113	489
66.148	503
66.3846	459
66.6213	472
66.858	488
67.0946	475
67.3313	456
67.5679	455
67.8046	513
68.0412	471
68.2779	460
68.5146	489
68.7512	495
68.9879	459
69.2245	468
69.4612	440
69.6978	505
69.9345	443
70.1711	466
70.4078	462
70.6445	471
70.8811	412
71.1178	486
71.3544	462
71.5911	450
71.8277	410
72.0644	439
72.3011	454
72.5377	421
72.7744	450
73.011	472
73.2477	447
73.4843	483
73.721	418
73.9577	462
74.1943	463
74.431	438
74.6676	483
74.9043	470
75.1409	473
75.3776	489
75.6142	1800
75.8509	1356
76.0876	562
76.3242	464
76.5609	434
76.7975	430
77.0342	420
77.2708	451
77.5075	424
77.7442	421
77.9808	437
78.2175	448
78.4541	438
78.6908	416
78.9274	432
79.1641	449
79.4007	458
79.6374	412
79.8741	407
80.1107	394
80.3474	417
80.584	440
80.8207	382
81.0573	421
81.294	395
81.5307	430
81.7673	368
82.004	383
82.2406	385
82.4773	452
82.7139	395
82.9506	442
83.1873	414
83.4239	453
83.6606	393
83.8972	406
84.1339	392
84.3705	457
84.6072	395
84.8438	379
85.0805	442
85.3172	405
85.5538	426
85.7905	392
86.0271	419
86.2638	357
86.5004	397
86.7371	401
86.9738	411
87.2104	363
87.4471	400
87.6837	355
87.9204	363
88.157	377
88.3937	413
88.6303	391
88.867	415
89.1037	370
89.3403	397
89.577	365
89.8136	355
89.9911	394