Folder: Comparison-of-the-corrosion-behavior-of-four-Fe-Cr-Ni-austenitic-alloys-in-supercritical-water/XRD (part 3)

File: 800-1.txt
?
20.0     6
20.23665 11
20.47331 19
20.70996 8
20.94662 2
21.18328 6
21.41993 13
21.65659 15
21.89325 4
22.12990 13
22.36656 10
22.60322 21
22.83987 10
23.07653 10
23.31318 8
23.54984 10
23.78650 12
24.02315 16
24.25981 67
24.49647 97
24.73312 16
24.96978 16
25.20644 12
25.44309 16
25.67975 8
25.91640 20
26.15306 15
26.38972 20
26.62637 13
26.86303 15
27.09969 16
27.33634 20
27.57300 11
27.80966 20
28.04631 14
28.28297 21
28.51963 24
28.75628 11
28.99294 25
29.22959 14
29.46625 26
29.70291 23
29.93956 60
30.17622 24
30.41288 18
30.64953 13
30.88619 21
31.12285 12
31.35950 16
31.59616 19
31.83281 10
32.06947 13
32.30613 13
32.54278 13
32.77944 15
33.01610 20
33.25275 72
33.48941 157
33.72607 51
33.96272 22
34.19938 19
34.43603 17
34.67269 14
34.90935 26
35.14600 122
35.38266 69
35.61932 35
35.85597 64
36.09263 76
36.32928 34
36.56594 13
36.80260 23
37.03926 9
37.27591 5
37.51257 17
37.74922 22
37.98588 12
38.22254 6
38.45919 24
38.69585 12
38.93251 9
39.16916 23
39.40582 8
39.64247 16
39.87913 18
40.11579 6
40.35244 8
40.58910 5
40.82576 4
41.06241 23
41.29907 36
41.53572 17
41.77238 20
42.00904 12
42.24570 12
42.48235 31
42.71901 41
42.95566 25
43.19232 25
43.42898 79
43.66563 1560
43.90229 401
44.13895 65
44.37560 65
44.61226 26
44.84891 17
45.08557 17
45.32223 13
45.55888 10
45.79554 8
46.0322  0
46.26885 4
46.50551 14
46.74217 7
46.97882 9
47.21548 12
47.45214 8
47.68879 14
47.92545 8
48.16210 13
48.39876 5
48.63542 6
48.87207 6
49.10873 1
49.34539 20
49.58204 19
49.81870 23
50.05535 14
50.29201 33
50.52867 63
50.76532 315
51.00198 1266
51.23864 108
51.47529 21
51.71195 24
51.94861 14
52.18526 17
52.42192 17
52.65858 10
52.89523 22
53.13189 19
53.36854 23
53.60520 17
53.84186 15
54.07851 24
54.31517 32
54.55183 57
54.78848 31
55.02514 11
55.26179 19
55.49845 9
55.73511 8
55.97176 12
56.20842 19
56.44508 22
56.68174 22
56.91839 20
57.15505 8
57.39170 15
57.62836 10
57.86502 21
58.10167 3
58.33833 10
58.57498 23
58.81164 7
59.04830 21
59.28495 18
59.52161 12
59.75827 9
59.99492 19
60.23158 9
60.46823 8
60.70489 6
60.94155 18
61.17820 7
61.41486 26
61.65152 18
61.88818 28
62.12483 28
62.36149 17
62.59814 22
62.83480 31
63.07146 6
63.30811 25
63.54477 12
63.78142 11
64.01808 6
64.25474 19
64.49140 24
64.72805 19
64.96471 19
65.20137 26
65.43802 12
65.67468 14
65.91133 14
66.14799 16
66.38465 16
66.62130 28
66.85796 21
67.09462 21
67.33127 19
67.56793 27
67.80458 12
68.04124 8
68.27790 32
68.51455 14
68.75121 8
68.98786 23
69.22452 13
69.46118 19
69.69783 12
69.93449 26
70.17115 8
70.40780 16
70.64446 15
70.88111 8
71.11777 21
71.35443 16
71.59108 6
71.82774 13
72.0644  22
72.30105 8
72.53771 18
72.77436 20
73.01102 19
73.24768 19
73.48434 13
73.72100 16
73.95765 11
74.19431 23
74.43096 17
74.66762 106
74.90428 500
75.14093 50
75.37759 19
75.61425 16
75.85090 5
76.08756 13
76.32421 10
76.56087 9
76.79753 13
77.03418 14
77.27084 23
77.5075  7
77.74415 12
77.98081 16
78.21746 6
78.45412 20
78.69078 16
78.92743 16
79.16409 5
79.40074 8
79.63740 23
79.87406 11
80.11071 5
80.34737 15
80.58403 17
80.82068 25
81.05734 23
81.29399 13
81.53065 19
81.76731 25
82.00396 8
82.24062 25
82.47728 26
82.71393 16
82.95059 28
83.18725 11
83.42391 29
83.66056 23
83.89722 25
84.13388 14
84.37053 23
84.60719 19
84.84384 11
85.08050 24
85.31716 19
85.55381 19
85.79047 8
86.02713 25
86.26378 19
86.50044 21
86.73709 22
86.97375 15
87.21041 17
87.44706 12
87.68372 10
87.92038 18
88.15703 15
88.39369 23
88.63034 20
88.86700 0
89.10366 18
89.34031 12
89.57697 32
89.81362 19
89.99111 19

File: 800-1.uxd
;content of D:\data\result\mecham\???\20231225-89741\800-1.raw - (Diffrac Plus V4 file)
_FILEVERSION = 3
_SAMPLE
_+SAMPLE
_USER = Lab Manager
_GONIOMETER_CODE = 21
_STAGE_CODE = 7
; Goniometer : D8 theta/theta, stage : Chi drive
_SAMPLE_CHANGER_CODE = 0
_ATTACHMENTS_CODE = 0
_GONIOMETER_RADIUS = 280
_MONOCHROMATOR = 0
; Incident beam monochromator : None
_BETA_FILTER = N
_ANALYZER_CODE = 0
; Received beam analyzer : None
_DATEMEASURED = 25-Dec-2023 11:42:07
_RUNTIME = 11.1886
_WL_UNIT = A
_WL1 = 1.5406
_WL2 = 1.54439
_WL3 = 1.39222
_WLRATIO = 0.5
_ANODE = Cu
_V4_INF_USER = Lab Manager
_V4_INF_CREATOR = V5Converter
_V4_INF_CREATOR_VERSION = 4.4.16.0

; Data for range 1
_DRIVE = COUPLED
_STEPTIME = 57.6
_STEPSIZE = 0.019721
_STEPMODE = C
_START = 20
_THETA = 10
_2THETA = 20
_KHI = 0
_PHI = 0
_DETECTORSLIT = out
_AUX1 = 0
_TIMESTARTED = 0
_KV = 40
_MA = 40
_RANGE_WL = 1.5406
_3DPLANE = 0
_V4_PSD2THETA = 9999
_V4_PSDCHANNEL1 = 0
_V4_PSDAPERTURE = 2.839876
_V4_PSDTYPE = 5
_V4_PSDFIXED = 0
_V4_COUNTERS_MASK = 1
_V4_DRIVES_MASK = 0
_V4_ENCODERS_MASK = 0
_2THETACOUNTS = 1
; 2THETA	Cnt2_D1
20	185
20.2367	146
20.4733	165
20.71	170
20.9466	165
21.1833	159
21.4199	159
21.6566	185
21.8933	160
22.1299	186
22.3666	175
22.6032	184
22.8399	164
23.0765	170
23.3132	170
23.5498	165
23.7865	175
24.0232	171
24.2598	223
24.4965	345
24.7331	181
24.9698	140
25.2064	161
25.4431	170
25.6798	159
25.9164	185
26.1531	170
26.3897	171
26.6264	129
26.863	164
27.0997	157
27.3363	167
27.573	152
27.8097	162
28.0463	176
28.283	157
28.5196	170
28.7563	145
28.9929	167
29.2296	155
29.4663	157
29.7029	163
29.9396	242
30.1762	172
30.4129	156
30.6495	158
30.8862	139
31.1228	147
31.3595	164
31.5962	151
31.8328	158
32.0695	165
32.3061	156
32.5428	139
32.7794	152
33.0161	164
33.2528	235
33.4894	412
33.7261	178
33.9627	166
34.1994	154
34.436	180
34.6727	161
34.9094	167
35.146	297
35.3827	247
35.6193	206
35.856	210
36.0926	256
36.3293	190
36.5659	153
36.8026	154
37.0393	149
37.2759	144
37.5126	164
37.7492	146
37.9859	145
38.2225	154
38.4592	149
38.6959	147
38.9325	156
39.1692	144
39.4058	151
39.6425	159
39.8791	154
40.1158	153
40.3524	164
40.5891	160
40.8258	150
41.0624	164
41.2991	187
41.5357	195
41.7724	171
42.009	154
42.2457	161
42.4824	199
42.719	168
42.9557	192
43.1923	180
43.429	227
43.6656	1779
43.9023	2707
44.1389	232
44.3756	221
44.6123	173
44.8489	163
45.0856	163
45.3222	169
45.5589	154
45.7955	156
46.0322	146
46.2689	137
46.5055	124
46.7422	163
46.9788	169
47.2155	153
47.4521	147
47.6888	163
47.9255	155
48.1621	138
48.3988	144
48.6354	141
48.8721	134
49.1087	129
49.3454	144
49.582	161
49.8187	151
50.0554	166
50.292	189
50.5287	194
50.7653	487
51.002	1860
51.2386	397
51.4753	183
51.712	163
51.9486	162
52.1853	156
52.4219	155
52.6586	161
52.8952	143
53.1319	125
53.3685	149
53.6052	140
53.8419	123
54.0785	143
54.3152	158
54.5518	221
54.7885	173
55.0251	163
55.2618	165
55.4985	130
55.7351	136
55.9718	140
56.2084	144
56.4451	158
56.6817	151
56.9184	146
57.155	127
57.3917	133
57.6284	134
57.865	159
58.1017	130
58.3383	134
58.575	111
58.8116	126
59.0483	157
59.285	139
59.5216	133
59.7583	131
59.9949	172
60.2316	153
60.4682	136
60.7049	125
60.9416	142
61.1782	123
61.4149	134
61.6515	149
61.8882	148
62.1248	160
62.3615	126
62.5981	145
62.8348	162
63.0715	135
63.3081	164
63.5448	148
63.7814	133
64.0181	143
64.2547	132
64.4914	167
64.7281	147
64.9647	164
65.2014	149
65.438	150
65.6747	133
65.9113	139
66.148	155
66.3846	131
66.6213	169
66.858	134
67.0946	133
67.3313	141
67.5679	145
67.8046	146
68.0412	137
68.2779	150
68.5146	148
68.7512	139
68.9879	160
69.2245	163
69.4612	146
69.6978	147
69.9345	150
70.1711	137
70.4078	147
70.6445	137
70.8811	144
71.1178	162
71.3544	150
71.5911	134
71.8277	147
72.0644	156
72.3011	134
72.5377	168
72.7744	164
73.011	165
73.2477	163
73.4843	140
73.721	157
73.9577	155
74.1943	164
74.431	167
74.6676	238
74.9043	697
75.1409	431
75.3776	182
75.6142	164
75.8509	154
76.0876	148
76.3242	156
76.5609	166
76.7975	150
77.0342	168
77.2708	165
77.5075	170
77.7442	148
77.9808	165
78.2175	143
78.4541	152
78.6908	183
78.9274	156
79.1641	138
79.4007	130
79.6374	176
79.8741	160
80.1107	139
80.3474	142
80.584	167
80.8207	167
81.0573	171
81.294	137
81.5307	153
81.7673	148
82.004	143
82.2406	145
82.4773	177
82.7139	140
82.9506	153
83.1873	135
83.4239	182
83.6606	175
83.8972	165
84.1339	145
84.3705	161
84.6072	141
84.8438	156
85.0805	143
85.3172	171
85.5538	170
85.7905	140
86.0271	151
86.2638	148
86.5004	165
86.7371	156
86.9738	146
87.2104	135
87.4471	137
87.6837	128
87.9204	157
88.157	143
88.3937	159
88.6303	155
88.867	133
89.1037	140
89.3403	134
89.577	144
89.8136	156
89.9911	161

File: 800-X.txt
?
20.0     12
20.23665 9
20.47331 7
20.70996 13
20.94662 9
21.18328 6
21.41993 8
21.65659 13
21.89325 11
22.12990 8
22.36656 8
22.60322 15
22.83987 13
23.07653 9
23.31318 7
23.54984 7
23.78650 10
24.02315 24
24.25981 224
24.49647 10
24.73312 19
24.96978 13
25.20644 11
25.44309 7
25.67975 16
25.91640 7
26.15306 11
26.38972 7
26.62637 10
26.86303 11
27.09969 0
27.33634 14
27.57300 3
27.80966 4
28.04631 5
28.28297 5
28.51963 9
28.75628 5
28.99294 11
29.22959 11
29.46625 16
29.70291 4
29.93956 9
30.17622 17
30.41288 12
30.64953 8
30.88619 16
31.12285 21
31.35950 12
31.59616 17
31.83281 9
32.06947 19
32.30613 13
32.54278 16
32.77944 20
33.01610 68
33.25275 1784
33.48941 49
33.72607 9
33.96272 18
34.19938 15
34.43603 9
34.67269 12
34.90935 18
35.14600 13
35.38266 74
35.61932 120
35.85597 10
36.09263 12
36.32928 12
36.56594 14
36.80260 7
37.03926 13
37.27591 14
37.51257 4
37.74922 5
37.98588 9
38.22254 15
38.45919 4
38.69585 10
38.93251 9
39.16916 13
39.40582 11
39.64247 5
39.87913 5
40.11579 8
40.35244 11
40.58910 8
40.82576 96
41.06241 27
41.29907 10
41.53572 11
41.77238 10
42.00904 9
42.24570 11
42.48235 12
42.71901 2
42.95566 9
43.19232 23
43.42898 10
43.66563 13
43.90229 11
44.13895 13
44.37560 10
44.61226 6
44.84891 10
45.08557 9
45.32223 3
45.55888 10
45.79554 9
46.0322  7
46.26885 6
46.50551 10
46.74217 7
46.97882 6
47.21548 5
47.45214 8
47.68879 14
47.92545 10
48.16210 16
48.39876 8
48.63542 11
48.87207 10
49.10873 11
49.34539 110
49.58204 70
49.81870 6
50.05535 9
50.29201 6
50.52867 6
50.76532 7
51.00198 1
51.23864 6
51.47529 2
51.71195 9
51.94861 10
52.18526 5
52.42192 5
52.65858 6
52.89523 7
53.13189 6
53.36854 16
53.60520 23
53.84186 22
54.07851 369
54.31517 16
54.55183 16
54.78848 6
55.02514 9
55.26179 8
55.49845 13
55.73511 8
55.97176 19
56.20842 7
56.44508 11
56.68174 13
56.91839 56
57.15505 23
57.39170 18
57.62836 91
57.86502 13
58.10167 14
58.33833 9
58.57498 10
58.81164 7
59.04830 12
59.28495 11
59.52161 11
59.75827 3
59.99492 11
60.23158 9
60.46823 10
60.70489 11
60.94155 9
61.17820 8
61.41486 8
61.65152 12
61.88818 16
62.12483 16
62.36149 114
62.59814 66
62.83480 15
63.07146 3
63.30811 10
63.54477 14
63.78142 11
64.01808 27
64.25474 7
64.49140 9
64.72805 13
64.96471 9
65.20137 11
65.43802 18
65.67468 18
65.91133 8
66.14799 7
66.38465 13
66.62130 19
66.85796 7
67.09462 11
67.33127 13
67.56793 4
67.80458 4
68.04124 19
68.27790 12
68.51455 9
68.75121 15
68.98786 12
69.22452 19
69.46118 18
69.69783 29
69.93449 14
70.17115 10
70.40780 14
70.64446 12
70.88111 19
71.11777 14
71.35443 14
71.59108 19
71.82774 98
72.0644  29
72.30105 32
72.53771 15
72.77436 2
73.01102 14
73.24768 13
73.48434 10
73.72100 17
73.95765 22
74.19431 12
74.43096 11
74.66762 4
74.90428 22
75.14093 22
75.37759 5
75.61425 15
75.85090 8
76.08756 14
76.32421 13
76.56087 10
76.79753 18
77.03418 6
77.27084 7
77.5075  21
77.74415 12
77.98081 9
78.21746 3
78.45412 14
78.69078 3
78.92743 15
79.16409 14
79.40074 10
79.63740 6
79.87406 8
80.11071 3
80.34737 5
80.58403 16
80.82068 25
81.05734 6
81.29399 10
81.53065 7
81.76731 9
82.00396 9
82.24062 17
82.47728 9
82.71393 35
82.95059 48
83.18725 12
83.42391 15
83.66056 6
83.89722 19
84.13388 11
84.37053 17
84.60719 16
84.84384 39
85.08050 8
85.31716 11
85.55381 24
85.79047 15
86.02713 19
86.26378 24
86.50044 13
86.73709 19
86.97375 13
87.21041 4
87.44706 23
87.68372 13
87.92038 23
88.15703 21
88.39369 8
88.63034 30
88.86700 15
89.10366 3
89.34031 12
89.57697 39
89.81362 32
89.99111 18

File: 800-X.uxd
;content of D:\data\result\mecham\???\20231225-89741\800-X.raw - (Diffrac Plus V4 file)
_FILEVERSION = 3
_SAMPLE
_+SAMPLE
_USER = Lab Manager
_GONIOMETER_CODE = 21
_STAGE_CODE = 7
; Goniometer : D8 theta/theta, stage : Chi drive
_SAMPLE_CHANGER_CODE = 0
_ATTACHMENTS_CODE = 0
_GONIOMETER_RADIUS = 280
_MONOCHROMATOR = 0
; Incident beam monochromator : None
_BETA_FILTER = N
_ANALYZER_CODE = 0
; Received beam analyzer : None
_DATEMEASURED = 25-Dec-2023 12:01:33
_RUNTIME = 11.18897
_WL_UNIT = A
_WL1 = 1.5406
_WL2 = 1.54439
_WL3 = 1.39222
_WLRATIO = 0.5
_ANODE = Cu
_V4_INF_USER = Lab Manager
_V4_INF_CREATOR = V5Converter
_V4_INF_CREATOR_VERSION = 4.4.16.0

; Data for range 1
_DRIVE = COUPLED
_STEPTIME = 57.6
_STEPSIZE = 0.019721
_STEPMODE = C
_START = 20
_THETA = 10
_2THETA = 20
_KHI = 0
_PHI = 0
_DETECTORSLIT = out
_AUX1 = 0
_TIMESTARTED = 0
_KV = 40
_MA = 40
_RANGE_WL = 1.5406
_3DPLANE = 0
_V4_PSD2THETA = 9999
_V4_PSDCHANNEL1 = 0
_V4_PSDAPERTURE = 2.839876
_V4_PSDTYPE = 5
_V4_PSDFIXED = 0
_V4_COUNTERS_MASK = 1
_V4_DRIVES_MASK = 0
_V4_ENCODERS_MASK = 0
_2THETACOUNTS = 1
; 2THETA	Cnt2_D1
20	85
20.2367	76
20.4733	94
20.71	96
20.9466	76
21.1833	86
21.4199	80
21.6566	73
21.8933	71
22.1299	61
22.3666	75
22.6032	77
22.8399	81
23.0765	73
23.3132	66
23.5498	70
23.7865	85
24.0232	96
24.2598	481
24.4965	77
24.7331	84
24.9698	68
25.2064	77
25.4431	67
25.6798	91
25.9164	74
26.1531	68
26.3897	65
26.6264	58
26.863	76
27.0997	58
27.3363	64
27.573	56
27.8097	54
28.0463	47
28.283	60
28.5196	54
28.7563	56
28.9929	62
29.2296	51
29.4663	74
29.7029	42
29.9396	62
30.1762	70
30.4129	56
30.6495	39
30.8862	69
31.1228	64
31.3595	53
31.5962	63
31.8328	58
32.0695	51
32.3061	62
32.5428	55
32.7794	77
33.0161	135
33.2528	2784
33.4894	108
33.7261	57
33.9627	64
34.1994	63
34.436	47
34.6727	58
34.9094	68
35.146	56
35.3827	109
35.6193	264
35.856	61
36.0926	49
36.3293	53
36.5659	45
36.8026	47
37.0393	50
37.2759	45
37.5126	40
37.7492	40
37.9859	43
38.2225	54
38.4592	40
38.6959	39
38.9325	40
39.1692	47
39.4058	62
39.6425	44
39.8791	36
40.1158	43
40.3524	30
40.5891	37
40.8258	122
41.0624	66
41.2991	36
41.5357	51
41.7724	45
42.009	42
42.2457	36
42.4824	47
42.719	35
42.9557	33
43.1923	68
43.429	39
43.6656	41
43.9023	41
44.1389	44
44.3756	42
44.6123	27
44.8489	29
45.0856	29
45.3222	35
45.5589	33
45.7955	36
46.0322	28
46.2689	33
46.5055	38
46.7422	34
46.9788	33
47.2155	32
47.4521	33
47.6888	49
47.9255	38
48.1621	50
48.3988	36
48.6354	25
48.8721	36
49.1087	42
49.3454	162
49.582	254
49.8187	35
50.0554	42
50.292	32
50.5287	35
50.7653	39
51.002	25
51.2386	29
51.4753	30
51.712	44
51.9486	29
52.1853	27
52.4219	44
52.6586	29
52.8952	32
53.1319	21
53.3685	40
53.6052	69
53.8419	49
54.0785	455
54.3152	112
54.5518	42
54.7885	39
55.0251	35
55.2618	36
55.4985	43
55.7351	47
55.9718	47
56.2084	35
56.4451	37
56.6817	44
56.9184	112
57.155	76
57.3917	45
57.6284	149
57.865	55
58.1017	40
58.3383	40
58.575	42
58.8116	40
59.0483	54
59.285	34
59.5216	54
59.7583	45
59.9949	42
60.2316	58
60.4682	60
60.7049	51
60.9416	51
61.1782	55
61.4149	62
61.6515	50
61.8882	61
62.1248	60
62.3615	167
62.5981	196
62.8348	85
63.0715	72
63.3081	55
63.5448	78
63.7814	73
64.0181	101
64.2547	69
64.4914	71
64.7281	83
64.9647	73
65.2014	92
65.438	90
65.6747	85
65.9113	85
66.148	94
66.3846	89
66.6213	92
66.858	85
67.0946	96
67.3313	103
67.5679	85
67.8046	97
68.0412	94
68.2779	105
68.5146	109
68.7512	119
68.9879	102
69.2245	111
69.4612	115
69.6978	153
69.9345	123
70.1711	112
70.4078	112
70.6445	96
70.8811	125
71.1178	102
71.3544	135
71.5911	125
71.8277	216
72.0644	194
72.3011	146
72.5377	97
72.7744	115
73.011	117
73.2477	103
73.4843	118
73.721	121
73.9577	140
74.1943	110
74.431	105
74.6676	109
74.9043	122
75.1409	124
75.3776	113
75.6142	119
75.8509	98
76.0876	121
76.3242	132
76.5609	87
76.7975	120
77.0342	118
77.2708	111
77.5075	138
77.7442	127
77.9808	112
78.2175	110
78.4541	109
78.6908	93
78.9274	134
79.1641	117
79.4007	115
79.6374	103
79.8741	118
80.1107	106
80.3474	94
80.584	134
80.8207	113
81.0573	94
81.294	109
81.5307	130
81.7673	127
82.004	85
82.2406	122
82.4773	120
82.7139	156
82.9506	157
83.1873	117
83.4239	107
83.6606	106
83.8972	109
84.1339	107
84.3705	109
84.6072	112
84.8438	142
85.0805	109
85.3172	100
85.5538	114
85.7905	103
86.0271	93
86.2638	104
86.5004	111
86.7371	105
86.9738	105
87.2104	89
87.4471	112
87.6837	98
87.9204	125
88.157	118
88.3937	90
88.6303	108
88.867	113
89.1037	97
89.3403	97
89.577	137
89.8136	120
89.9911	113